condition_name,sound_file,volume,thisN,thisTrialN,thisRepN,resp.keys,resp.rt,resp.duration,main_loop.thisRepN,main_loop.thisTrialN,main_loop.thisN,main_loop.thisIndex,thisRow.t,notes,piloting,instructions.started,instr_text.started,start_key.started,instructions.stopped,start_key.keys,start_key.rt,start_key.duration,trial.started,fixation.started,target.started,resp.started,fixation.stopped,trial.stopped,main_loop.resp.keys,main_loop.resp.rt,main_loop.resp.duration,participant,session,date,expName,expVersion,psychopyVersion,frameRate,expStart,
,,,,,,,,,,,,,,,True,0.009760700166225433,0.02133999951183796,0.02133999951183796,3.367489299736917,space,3.2583539001643658,None,,,,,,,,,,zxcv,011,2026-04-21_09h42.29.231,noise_study,,2026.1.3,60.07409543598725,2026-04-21 09h42.29.514954 +0500,
Silence,cafe_noise.wav,0,0,0,0,space,0.4335289001464844,None,0,0,0,10,3.4017658000811934,,,,,,,,,,3.380392899736762,3.4017658000811934,3.868364599533379,3.868364599533379,3.9018251998350024,4.304850899614394,space,0.4335289001464844,None,zxcv,011,2026-04-21_09h42.29.231,noise_study,,2026.1.3,60.07409543598725,2026-04-21 09h42.29.514954 +0500,
Silence,cafe_noise.wav,0,1,1,0,space,0.32956159953027964,None,0,1,1,2,4.317784300073981,,,,,,,,,,4.305062299594283,4.317784300073981,4.817469500005245,4.817469500005245,4.817469500005245,5.153888099826872,space,0.32956159953027964,None,zxcv,011,2026-04-21_09h42.29.231,noise_study,,2026.1.3,60.07409543598725,2026-04-21 09h42.29.514954 +0500,
Silence,cafe_noise.wav,0,2,2,0,space,0.36053530033677816,None,0,2,2,0,5.166925800032914,,,,,,,,,,5.154062200337648,5.166925800032914,5.666587599553168,5.666587599553168,5.666587599553168,6.037381899543107,space,0.36053530033677816,None,zxcv,011,2026-04-21_09h42.29.231,noise_study,,2026.1.3,60.07409543598725,2026-04-21 09h42.29.514954 +0500,
Silence,cafe_noise.wav,0,3,3,0,space,0.31868189945816994,None,0,3,3,16,6.0495541002601385,,,,,,,,,,6.037556700408459,6.0495541002601385,6.549217299558222,6.549217299558222,6.549217299558222,6.869061700068414,space,0.31868189945816994,None,zxcv,011,2026-04-21_09h42.29.231,noise_study,,2026.1.3,60.07409543598725,2026-04-21 09h42.29.514954 +0500,
Silence,cafe_noise.wav,0,4,4,0,space,0.37050210032612085,None,0,4,4,14,6.882005900144577,,,,,,,,,,6.869235900230706,6.882005900144577,7.381630599498749,7.381630599498749,7.381630599498749,7.767993699759245,space,0.37050210032612085,None,zxcv,011,2026-04-21_09h42.29.231,noise_study,,2026.1.3,60.07409543598725,2026-04-21 09h42.29.514954 +0500,
Noise,cafe_noise.wav,1,5,5,0,space,0.4403015999123454,None,0,5,5,13,7.7809525998309255,,,,,,,,,,7.768173200078309,7.7809525998309255,8.280696399509907,8.280696399509907,8.280696399509907,8.733771299943328,space,0.4403015999123454,None,zxcv,011,2026-04-21_09h42.29.231,noise_study,,2026.1.3,60.07409543598725,2026-04-21 09h42.29.514954 +0500,
Noise,cafe_noise.wav,1,6,6,0,space,0.42739810049533844,None,0,6,6,15,8.746680099517107,,,,,,,,,,8.733953800052404,8.746680099517107,9.246459799818695,9.246459799818695,9.246459799818695,9.682756599970162,space,0.42739810049533844,None,zxcv,011,2026-04-21_09h42.29.231,noise_study,,2026.1.3,60.07409543598725,2026-04-21 09h42.29.514954 +0500,
Noise,cafe_noise.wav,1,7,7,0,space,0.4895181003957987,None,0,7,7,3,9.695890500210226,,,,,,,,,,9.68293649982661,9.695890500210226,10.195535499602556,10.195535499602556,10.195535499602556,10.698635100387037,space,0.4895181003957987,None,zxcv,011,2026-04-21_09h42.29.231,noise_study,,2026.1.3,60.07409543598725,2026-04-21 09h42.29.514954 +0500,
Noise,cafe_noise.wav,1,8,8,0,space,0.4063887996599078,None,0,8,8,11,10.711690300144255,,,,,,,,,,10.698819000273943,10.711690300144255,11.21113200020045,11.21113200020045,11.21113200020045,11.630798099562526,space,0.4063887996599078,None,zxcv,011,2026-04-21_09h42.29.231,noise_study,,2026.1.3,60.07409543598725,2026-04-21 09h42.29.514954 +0500,
Noise,cafe_noise.wav,1,9,9,0,space,0.40553239919245243,None,0,9,9,7,11.643940899521112,,,,,,,,,,11.630991199985147,11.643940899521112,12.14352949988097,12.14352949988097,12.14352949988097,12.564001199789345,space,0.40553239919245243,None,zxcv,011,2026-04-21_09h42.29.231,noise_study,,2026.1.3,60.07409543598725,2026-04-21 09h42.29.514954 +0500,
Silence,cafe_noise.wav,0,10,10,0,space,0.4354480002075434,None,0,10,10,8,12.576409899629653,,,,,,,,,,12.5641815001145,12.576409899629653,13.076073699630797,13.076073699630797,13.076073699630797,13.512529900297523,space,0.4354480002075434,None,zxcv,011,2026-04-21_09h42.29.231,noise_study,,2026.1.3,60.07409543598725,2026-04-21 09h42.29.514954 +0500,
Silence,cafe_noise.wav,0,11,11,0,space,0.4384031994268298,None,0,11,11,4,13.525415799580514,,,,,,,,,,13.512706000357866,13.525415799580514,14.02507899980992,14.02507899980992,14.02507899980992,14.478233800269663,space,0.4384031994268298,None,zxcv,011,2026-04-21_09h42.29.231,noise_study,,2026.1.3,60.07409543598725,2026-04-21 09h42.29.514954 +0500,
Silence,cafe_noise.wav,0,12,12,0,space,0.3448820998892188,None,0,12,12,18,14.491220599971712,,,,,,,,,,14.478404000401497,14.491220599971712,14.990728399716318,14.990728399716318,14.990728399716318,15.343892400152981,space,0.3448820998892188,None,zxcv,011,2026-04-21_09h42.29.231,noise_study,,2026.1.3,60.07409543598725,2026-04-21 09h42.29.514954 +0500,
Noise,cafe_noise.wav,1,13,13,0,space,0.4444642001762986,None,0,13,13,19,15.357002699747682,,,,,,,,,,15.344070699997246,15.357002699747682,15.856617500074208,15.856617500074208,15.856617500074208,16.309509200043976,space,0.4444642001762986,None,zxcv,011,2026-04-21_09h42.29.231,noise_study,,2026.1.3,60.07409543598725,2026-04-21 09h42.29.514954 +0500,
Noise,cafe_noise.wav,1,14,14,0,space,0.36194209940731525,None,0,14,14,1,16.322721899487078,,,,,,,,,,16.30970420036465,16.322721899487078,16.82274049986154,16.82274049986154,16.82274049986154,17.19233740027994,space,0.36194209940731525,None,zxcv,011,2026-04-21_09h42.29.231,noise_study,,2026.1.3,60.07409543598725,2026-04-21 09h42.29.514954 +0500,
Silence,cafe_noise.wav,0,15,15,0,space,0.3901511998847127,None,0,15,15,12,17.205196999944746,,,,,,,,,,17.192513999529183,17.205196999944746,17.704795699566603,17.704795699566603,17.704795699566603,18.107819999568164,space,0.3901511998847127,None,zxcv,011,2026-04-21_09h42.29.231,noise_study,,2026.1.3,60.07409543598725,2026-04-21 09h42.29.514954 +0500,
Silence,cafe_noise.wav,0,16,16,0,space,0.34352600015699863,None,0,16,16,6,18.120983299799263,,,,,,,,,,18.107995400205255,18.120983299799263,18.620554000139236,18.620554000139236,18.620554000139236,18.974499800242484,space,0.34352600015699863,None,zxcv,011,2026-04-21_09h42.29.231,noise_study,,2026.1.3,60.07409543598725,2026-04-21 09h42.29.514954 +0500,
Noise,cafe_noise.wav,1,17,17,0,space,0.33258149959146976,None,0,17,17,17,18.986909300088882,,,,,,,,,,18.97468930017203,18.986909300088882,19.4864309001714,19.4864309001714,19.4864309001714,19.822920199483633,space,0.33258149959146976,None,zxcv,011,2026-04-21_09h42.29.231,noise_study,,2026.1.3,60.07409543598725,2026-04-21 09h42.29.514954 +0500,
Noise,cafe_noise.wav,1,18,18,0,space,0.4358983999118209,None,0,18,18,5,19.83598029986024,,,,,,,,,,19.82310920022428,19.83598029986024,20.335598099976778,20.335598099976778,20.335598099976778,20.772145500406623,space,0.4358983999118209,None,zxcv,011,2026-04-21_09h42.29.231,noise_study,,2026.1.3,60.07409543598725,2026-04-21 09h42.29.514954 +0500,
Noise,cafe_noise.wav,1,19,19,0,space,0.28884120006114244,None,0,19,19,9,20.78497069980949,,,,,,,,,,20.77234010025859,20.78497069980949,21.28463859949261,21.28463859949261,21.28463859949261,21.58779519982636,space,0.28884120006114244,None,zxcv,011,2026-04-21_09h42.29.231,noise_study,,2026.1.3,60.07409543598725,2026-04-21 09h42.29.514954 +0500,
Noise,cafe_noise.wav,1,20,0,1,space,0.3333820002153516,None,1,0,20,9,21.60088409949094,,,,,,,,,,21.587977100163698,21.60088409949094,22.10076230019331,22.10076230019331,22.10076230019331,22.437206000089645,space,0.3333820002153516,None,zxcv,011,2026-04-21_09h42.29.231,noise_study,,2026.1.3,60.07409543598725,2026-04-21 09h42.29.514954 +0500,
Noise,cafe_noise.wav,1,21,1,1,space,0.32953959982842207,None,1,1,21,11,22.45004120003432,,,,,,,,,,22.437386999838054,22.45004120003432,22.94966849964112,22.94966849964112,22.94966849964112,23.286006500013173,space,0.32953959982842207,None,zxcv,011,2026-04-21_09h42.29.231,noise_study,,2026.1.3,60.07409543598725,2026-04-21 09h42.29.514954 +0500,
Silence,cafe_noise.wav,0,22,2,1,space,0.3103328002616763,None,1,2,22,2,23.299169099889696,,,,,,,,,,23.286204299889505,23.299169099889696,23.79884689953178,23.79884689953178,23.79884689953178,24.118707000277936,space,0.3103328002616763,None,zxcv,011,2026-04-21_09h42.29.231,noise_study,,2026.1.3,60.07409543598725,2026-04-21 09h42.29.514954 +0500,
Silence,cafe_noise.wav,0,23,3,1,space,0.2783192005008459,None,1,3,23,12,24.131715799681842,,,,,,,,,,24.118880399502814,24.131715799681842,24.63143530022353,24.63143530022353,24.63143530022353,24.917892100289464,space,0.2783192005008459,None,zxcv,011,2026-04-21_09h42.29.231,noise_study,,2026.1.3,60.07409543598725,2026-04-21 09h42.29.514954 +0500,
Silence,cafe_noise.wav,0,24,4,1,space,0.29369799979031086,None,1,4,24,0,24.930975300259888,,,,,,,,,,24.918064299970865,24.930975300259888,25.430585499852896,25.430585499852896,25.430585499852896,25.733868200331926,space,0.29369799979031086,None,zxcv,011,2026-04-21_09h42.29.231,noise_study,,2026.1.3,60.07409543598725,2026-04-21 09h42.29.514954 +0500,
Noise,cafe_noise.wav,1,25,5,1,space,0.3783152000978589,None,1,5,25,15,25.746695599518716,,,,,,,,,,25.734046599827707,25.746695599518716,26.246565399691463,26.246565399691463,26.246565399691463,26.633062300272286,space,0.3783152000978589,None,zxcv,011,2026-04-21_09h42.29.231,noise_study,,2026.1.3,60.07409543598725,2026-04-21 09h42.29.514954 +0500,
Noise,cafe_noise.wav,1,26,6,1,space,0.3421932999044657,None,1,6,26,7,26.64598360005766,,,,,,,,,,26.633244900032878,26.64598360005766,27.14559009950608,27.14559009950608,27.14559009950608,27.498708199709654,space,0.3421932999044657,None,zxcv,011,2026-04-21_09h42.29.231,noise_study,,2026.1.3,60.07409543598725,2026-04-21 09h42.29.514954 +0500,
Silence,cafe_noise.wav,0,27,7,1,space,0.4149359995499253,None,1,7,27,16,27.511620099656284,,,,,,,,,,27.49892309959978,27.511620099656284,28.011393300257623,28.011393300257623,28.011393300257623,28.431245800107718,space,0.4149359995499253,None,zxcv,011,2026-04-21_09h42.29.231,noise_study,,2026.1.3,60.07409543598725,2026-04-21 09h42.29.514954 +0500,
Noise,cafe_noise.wav,1,28,8,1,space,0.36716310027986765,None,1,8,28,17,28.44409709982574,,,,,,,,,,28.431425499729812,28.44409709982574,28.944271800108254,28.944271800108254,28.944271800108254,29.314060900360346,space,0.36716310027986765,None,zxcv,011,2026-04-21_09h42.29.231,noise_study,,2026.1.3,60.07409543598725,2026-04-21 09h42.29.514954 +0500,
Silence,cafe_noise.wav,0,29,9,1,space,0.3753646006807685,None,1,9,29,10,29.326692800037563,,,,,,,,,,29.314249199815094,29.326692800037563,29.826320099644363,29.826320099644363,29.826320099644363,30.216641799546778,space,0.3753646006807685,None,zxcv,011,2026-04-21_09h42.29.231,noise_study,,2026.1.3,60.07409543598725,2026-04-21 09h42.29.514954 +0500,
Noise,cafe_noise.wav,1,30,10,1,space,0.40590200014412403,None,1,10,30,3,30.225510999560356,,,,,,,,,,30.216944999992847,30.225510999560356,30.726593799889088,30.726593799889088,30.726593799889088,31.14523580018431,space,0.40590200014412403,None,zxcv,011,2026-04-21_09h42.29.231,noise_study,,2026.1.3,60.07409543598725,2026-04-21 09h42.29.514954 +0500,
Silence,cafe_noise.wav,0,31,11,1,space,0.31642699986696243,None,1,11,31,6,31.158620299771428,,,,,,,,,,31.14541309978813,31.158620299771428,31.6578796999529,31.6578796999529,31.6578796999529,31.977713500149548,space,0.31642699986696243,None,zxcv,011,2026-04-21_09h42.29.231,noise_study,,2026.1.3,60.07409543598725,2026-04-21 09h42.29.514954 +0500,
Silence,cafe_noise.wav,0,32,12,1,space,0.31754370033741,None,1,12,32,14,31.990989999845624,,,,,,,,,,31.977893199771643,31.990989999845624,32.49042980000377,32.49042980000377,32.49042980000377,32.81049480009824,space,0.31754370033741,None,zxcv,011,2026-04-21_09h42.29.231,noise_study,,2026.1.3,60.07409543598725,2026-04-21 09h42.29.514954 +0500,
Noise,cafe_noise.wav,1,33,13,1,space,0.3680036999285221,None,1,13,33,5,32.82338779978454,,,,,,,,,,32.810688599944115,32.82338779978454,33.32319260016084,33.32319260016084,33.32319260016084,33.69278960023075,space,0.3680036999285221,None,zxcv,011,2026-04-21_09h42.29.231,noise_study,,2026.1.3,60.07409543598725,2026-04-21 09h42.29.514954 +0500,
Noise,cafe_noise.wav,1,34,14,1,space,0.37755210045725107,None,1,14,34,19,33.70574199967086,,,,,,,,,,33.69298559986055,33.70574199967086,34.20524169970304,34.20524169970304,34.20524169970304,34.59192499984056,space,0.37755210045725107,None,zxcv,011,2026-04-21_09h42.29.231,noise_study,,2026.1.3,60.07409543598725,2026-04-21 09h42.29.514954 +0500,
Noise,cafe_noise.wav,1,35,15,1,space,0.3434279002249241,None,1,15,35,1,34.604784299619496,,,,,,,,,,34.592103799805045,34.604784299619496,35.10443679988384,35.10443679988384,35.10443679988384,35.457517799921334,space,0.3434279002249241,None,zxcv,011,2026-04-21_09h42.29.231,noise_study,,2026.1.3,60.07409543598725,2026-04-21 09h42.29.514954 +0500,
Noise,cafe_noise.wav,1,36,16,1,space,0.2868599994108081,None,1,16,36,13,35.470606200397015,,,,,,,,,,35.457700500264764,35.470606200397015,35.97032849956304,35.97032849956304,35.97032849956304,36.2736272001639,space,0.2868599994108081,None,zxcv,011,2026-04-21_09h42.29.231,noise_study,,2026.1.3,60.07409543598725,2026-04-21 09h42.29.514954 +0500,
Silence,cafe_noise.wav,0,37,17,1,space,0.32172019965946674,None,1,17,37,8,36.286490799859166,,,,,,,,,,36.27380389999598,36.286490799859166,36.78643949981779,36.78643949981779,36.78643949981779,37.12257289979607,space,0.32172019965946674,None,zxcv,011,2026-04-21_09h42.29.231,noise_study,,2026.1.3,60.07409543598725,2026-04-21 09h42.29.514954 +0500,
Silence,cafe_noise.wav,0,38,18,1,space,0.2684097997844219,None,1,18,38,4,37.135657999664545,,,,,,,,,,37.12274490017444,37.135657999664545,37.63535309955478,37.63535309955478,37.63535309955478,37.90539349988103,space,0.2684097997844219,None,zxcv,011,2026-04-21_09h42.29.231,noise_study,,2026.1.3,60.07409543598725,2026-04-21 09h42.29.514954 +0500,
Silence,cafe_noise.wav,0,39,19,1,space,0.3543333997949958,None,1,19,39,18,37.91826109960675,,,,,,,,,,37.90556660015136,37.91826109960675,38.417751899920404,38.417751899920404,38.417751899920404,38.787613400258124,space,0.3543333997949958,None,zxcv,011,2026-04-21_09h42.29.231,noise_study,,2026.1.3,60.07409543598725,2026-04-21 09h42.29.514954 +0500,
Silence,cafe_noise.wav,0,40,0,2,space,0.3032281994819641,None,2,0,40,10,38.80062719993293,,,,,,,,,,38.7877850998193,38.80062719993293,39.300450700335205,39.300450700335205,39.300450700335205,39.620166200213134,space,0.3032281994819641,None,zxcv,011,2026-04-21_09h42.29.231,noise_study,,2026.1.3,60.07409543598725,2026-04-21 09h42.29.514954 +0500,
Silence,cafe_noise.wav,0,41,1,2,space,0.3448419999331236,None,2,1,41,14,39.63329940009862,,,,,,,,,,39.6203415999189,39.63329940009862,40.13315869960934,40.13315869960934,40.13315869960934,40.486081699840724,space,0.3448419999331236,None,zxcv,011,2026-04-21_09h42.29.231,noise_study,,2026.1.3,60.07409543598725,2026-04-21 09h42.29.514954 +0500,
Noise,cafe_noise.wav,1,42,2,2,space,0.31182319950312376,None,2,2,42,3,40.499086800031364,,,,,,,,,,40.48625910002738,40.499086800031364,40.998674700036645,40.998674700036645,40.998674700036645,41.31848210003227,space,0.31182319950312376,None,zxcv,011,2026-04-21_09h42.29.231,noise_study,,2026.1.3,60.07409543598725,2026-04-21 09h42.29.514954 +0500,
Noise,cafe_noise.wav,1,43,3,2,space,0.34836259949952364,None,2,3,43,5,41.33162110019475,,,,,,,,,,41.31866089999676,41.33162110019475,41.83143350016326,41.83143350016326,41.83143350016326,42.18468050006777,space,0.34836259949952364,None,zxcv,011,2026-04-21_09h42.29.231,noise_study,,2026.1.3,60.07409543598725,2026-04-21 09h42.29.514954 +0500,
Noise,cafe_noise.wav,1,44,4,2,space,0.34401219990104437,None,2,4,44,19,42.19738719984889,,,,,,,,,,42.184871800243855,42.19738719984889,42.69691769964993,42.69691769964993,42.69691769964993,43.050392399542034,space,0.34401219990104437,None,zxcv,011,2026-04-21_09h42.29.231,noise_study,,2026.1.3,60.07409543598725,2026-04-21 09h42.29.514954 +0500,
Noise,cafe_noise.wav,1,45,5,2,space,0.4035443998873234,None,2,5,45,1,43.06330920010805,,,,,,,,,,43.050584400072694,43.06330920010805,43.56283949967474,43.56283949967474,43.56283949967474,43.98244920000434,space,0.4035443998873234,None,zxcv,011,2026-04-21_09h42.29.231,noise_study,,2026.1.3,60.07409543598725,2026-04-21 09h42.29.514954 +0500,
Silence,cafe_noise.wav,0,46,6,2,space,0.3121213996782899,None,2,6,46,8,43.99560869950801,,,,,,,,,,43.98263750039041,43.99560869950801,44.495315100066364,44.495315100066364,44.495315100066364,44.81527260039002,space,0.3121213996782899,None,zxcv,011,2026-04-21_09h42.29.231,noise_study,,2026.1.3,60.07409543598725,2026-04-21 09h42.29.514954 +0500,
Noise,cafe_noise.wav,1,47,7,2,space,0.34181089978665113,None,2,7,47,13,44.828213199973106,,,,,,,,,,44.815440899692476,44.828213199973106,45.327732999809086,45.327732999809086,45.327732999809086,45.68093589972705,space,0.34181089978665113,None,zxcv,011,2026-04-21_09h42.29.231,noise_study,,2026.1.3,60.07409543598725,2026-04-21 09h42.29.514954 +0500,
Noise,cafe_noise.wav,1,48,8,2,space,0.3298865994438529,None,2,8,48,15,45.69396930001676,,,,,,,,,,45.68111590016633,45.69396930001676,46.193757800385356,46.193757800385356,46.193757800385356,46.53031720034778,space,0.3298865994438529,None,zxcv,011,2026-04-21_09h42.29.231,noise_study,,2026.1.3,60.07409543598725,2026-04-21 09h42.29.514954 +0500,
Silence,cafe_noise.wav,0,49,9,2,space,0.24086300004273653,None,2,9,49,6,46.54311599954963,,,,,,,,,,46.530501400120556,46.54311599954963,47.042904700152576,47.042904700152576,47.042904700152576,47.29597519990057,space,0.24086300004273653,None,zxcv,011,2026-04-21_09h42.29.231,noise_study,,2026.1.3,60.07409543598725,2026-04-21 09h42.29.514954 +0500,
Noise,cafe_noise.wav,1,50,10,2,space,0.296637000516057,None,2,10,50,9,47.30906690005213,,,,,,,,,,47.29616789985448,47.30906690005213,47.80872149951756,47.80872149951756,47.80872149951756,48.11199350003153,space,0.296637000516057,None,zxcv,011,2026-04-21_09h42.29.231,noise_study,,2026.1.3,60.07409543598725,2026-04-21 09h42.29.514954 +0500,
Noise,cafe_noise.wav,1,51,11,2,space,0.3229820001870394,None,2,11,51,11,48.12469519954175,,,,,,,,,,48.112186199985445,48.12469519954175,48.62456869985908,48.62456869985908,48.62456869985908,48.96106250025332,space,0.3229820001870394,None,zxcv,011,2026-04-21_09h42.29.231,noise_study,,2026.1.3,60.07409543598725,2026-04-21 09h42.29.514954 +0500,
Silence,cafe_noise.wav,0,52,12,2,space,0.35453820042312145,None,2,12,52,12,48.974015899933875,,,,,,,,,,48.961239700205624,48.974015899933875,49.47391069959849,49.47391069959849,49.47391069959849,49.84363740030676,space,0.35453820042312145,None,zxcv,011,2026-04-21_09h42.29.231,noise_study,,2026.1.3,60.07409543598725,2026-04-21 09h42.29.514954 +0500,
Silence,cafe_noise.wav,0,53,13,2,space,0.32328000012785196,None,2,13,53,18,49.85654740035534,,,,,,,,,,49.84381099976599,49.85654740035534,50.35610860027373,50.35610860027373,50.35610860027373,50.694960500113666,space,0.32328000012785196,None,zxcv,011,2026-04-21_09h42.29.231,noise_study,,2026.1.3,60.07409543598725,2026-04-21 09h42.29.514954 +0500,
Noise,cafe_noise.wav,1,54,14,2,space,0.3691214006394148,None,2,14,54,7,50.705660900101066,,,,,,,,,,50.69526659976691,50.705660900101066,51.20558269973844,51.20558269973844,51.20558269973844,51.57521759998053,space,0.3691214006394148,None,zxcv,011,2026-04-21_09h42.29.231,noise_study,,2026.1.3,60.07409543598725,2026-04-21 09h42.29.514954 +0500,
Silence,cafe_noise.wav,0,55,15,2,space,0.3680603001266718,None,2,15,55,2,51.588210199959576,,,,,,,,,,51.57540739979595,51.588210199959576,52.087826299481094,52.087826299481094,52.087826299481094,52.45760369952768,space,0.3680603001266718,None,zxcv,011,2026-04-21_09h42.29.231,noise_study,,2026.1.3,60.07409543598725,2026-04-21 09h42.29.514954 +0500,
Silence,cafe_noise.wav,0,56,16,2,space,0.3258970007300377,None,2,16,56,0,52.47061649989337,,,,,,,,,,52.45777649991214,52.47061649989337,52.9702660003677,52.9702660003677,52.9702660003677,53.30706650018692,space,0.3258970007300377,None,zxcv,011,2026-04-21_09h42.29.231,noise_study,,2026.1.3,60.07409543598725,2026-04-21 09h42.29.514954 +0500,
Noise,cafe_noise.wav,1,57,17,2,space,0.29718129988759756,None,2,17,57,17,53.32014840003103,,,,,,,,,,53.307245899923146,53.32014840003103,53.81948910001665,53.81948910001665,53.81948910001665,54.12316310033202,space,0.29718129988759756,None,zxcv,011,2026-04-21_09h42.29.231,noise_study,,2026.1.3,60.07409543598725,2026-04-21 09h42.29.514954 +0500,
Silence,cafe_noise.wav,0,58,18,2,space,0.38696959987282753,None,2,18,58,16,54.13569839950651,,,,,,,,,,54.123349299654365,54.13569839950651,54.63517330028117,54.63517330028117,54.63517330028117,55.0265004998073,space,0.38696959987282753,None,zxcv,011,2026-04-21_09h42.29.231,noise_study,,2026.1.3,60.07409543598725,2026-04-21 09h42.29.514954 +0500,
Silence,cafe_noise.wav,0,59,19,2,space,0.4296730002388358,None,2,19,59,4,55.03646180033684,,,,,,,,,,55.02674499992281,55.03646180033684,55.53484409954399,55.53484409954399,55.55159729998559,55.9707754002884,space,0.4296730002388358,None,zxcv,011,2026-04-21_09h42.29.231,noise_study,,2026.1.3,60.07409543598725,2026-04-21 09h42.29.514954 +0500,
Silence,cafe_noise.wav,0,60,0,3,space,0.4632216999307275,None,3,0,60,16,55.98394139949232,,,,,,,,,,55.97095960006118,55.98394139949232,56.48322429973632,56.48322429973632,56.48322429973632,56.95449579972774,space,0.4632216999307275,None,zxcv,011,2026-04-21_09h42.29.231,noise_study,,2026.1.3,60.07409543598725,2026-04-21 09h42.29.514954 +0500,
Noise,cafe_noise.wav,1,61,1,3,space,0.38293820060789585,None,3,1,61,1,56.966057900339365,,,,,,,,,,56.954677700065076,56.966057900339365,57.46592099964619,57.46592099964619,57.46592099964619,57.852445599623024,space,0.38293820060789585,None,zxcv,011,2026-04-21_09h42.29.231,noise_study,,2026.1.3,60.07409543598725,2026-04-21 09h42.29.514954 +0500,
Silence,cafe_noise.wav,0,62,2,3,space,0.5737314997240901,None,3,2,62,0,57.86521529965103,,,,,,,,,,57.8526226002723,57.86521529965103,58.3657558998093,58.3657558998093,58.3657558998093,58.951505799777806,space,0.5737314997240901,None,zxcv,011,2026-04-21_09h42.29.231,noise_study,,2026.1.3,60.07409543598725,2026-04-21 09h42.29.514954 +0500,
Noise,cafe_noise.wav,1,63,3,3,space,0.4483829000964761,None,3,3,63,19,58.96436689980328,,,,,,,,,,58.95170160010457,58.96436689980328,59.46385089959949,59.46385089959949,59.46385089959949,59.917041200213134,space,0.4483829000964761,None,zxcv,011,2026-04-21_09h42.29.231,noise_study,,2026.1.3,60.07409543598725,2026-04-21 09h42.29.514954 +0500,
Silence,cafe_noise.wav,0,64,4,3,space,0.3631004998460412,None,3,4,64,8,59.93007180001587,,,,,,,,,,59.917227800004184,59.93007180001587,60.43040930014104,60.43040930014104,60.43040930014104,60.803055100142956,space,0.3631004998460412,None,zxcv,011,2026-04-21_09h42.29.231,noise_study,,2026.1.3,60.07409543598725,2026-04-21 09h42.29.514954 +0500,
Noise,cafe_noise.wav,1,65,5,3,space,0.5346693005412817,None,3,5,65,11,60.81271960027516,,,,,,,,,,60.80323849990964,60.81271960027516,61.312151700258255,61.312151700258255,61.312151700258255,61.848573099821806,space,0.5346693005412817,None,zxcv,011,2026-04-21_09h42.29.231,noise_study,,2026.1.3,60.07409543598725,2026-04-21 09h42.29.514954 +0500,
Silence,cafe_noise.wav,0,66,6,3,space,0.598849999718368,None,3,6,66,6,61.8615186996758,,,,,,,,,,61.84875260014087,61.8615186996758,62.36112589947879,62.36112589947879,62.36112589947879,62.96393410023302,space,0.598849999718368,None,zxcv,011,2026-04-21_09h42.29.231,noise_study,,2026.1.3,60.07409543598725,2026-04-21 09h42.29.514954 +0500,
Silence,cafe_noise.wav,0,67,7,3,space,0.528511400334537,None,3,7,67,12,62.97706179972738,,,,,,,,,,62.964116600342095,62.97706179972738,63.47681189980358,63.47681189980358,63.47681189980358,64.01301820017397,space,0.528511400334537,None,zxcv,011,2026-04-21_09h42.29.231,noise_study,,2026.1.3,60.07409543598725,2026-04-21 09h42.29.514954 +0500,
Silence,cafe_noise.wav,0,68,8,3,space,0.5620310995727777,None,3,8,68,18,64.026032499969,,,,,,,,,,64.01320479996502,64.026032499969,64.52568219974637,64.52568219974637,64.52568219974637,65.0952468002215,space,0.5620310995727777,None,zxcv,011,2026-04-21_09h42.29.231,noise_study,,2026.1.3,60.07409543598725,2026-04-21 09h42.29.514954 +0500,
Noise,cafe_noise.wav,1,69,9,3,space,0.42229800019413233,None,3,9,69,15,65.10833860002458,,,,,,,,,,65.09543410036713,65.10833860002458,65.60801200009882,65.60801200009882,65.60801200009882,66.04423420038074,space,0.42229800019413233,None,zxcv,011,2026-04-21_09h42.29.231,noise_study,,2026.1.3,60.07409543598725,2026-04-21 09h42.29.514954 +0500,
Noise,cafe_noise.wav,1,70,10,3,space,0.34442960005253553,None,3,10,70,17,66.05740430019796,,,,,,,,,,66.0445119002834,66.05740430019796,66.55697720032185,66.55697720032185,66.55697720032185,66.91044100001454,space,0.34442960005253553,None,zxcv,011,2026-04-21_09h42.29.231,noise_study,,2026.1.3,60.07409543598725,2026-04-21 09h42.29.514954 +0500,
Noise,cafe_noise.wav,1,71,11,3,space,0.5115971993654966,None,3,11,71,3,66.92325180023909,,,,,,,,,,66.91064919997007,66.92325180023909,67.42320379987359,67.42320379987359,67.42320379987359,67.9424526002258,space,0.5115971993654966,None,zxcv,011,2026-04-21_09h42.29.231,noise_study,,2026.1.3,60.07409543598725,2026-04-21 09h42.29.514954 +0500,
Silence,cafe_noise.wav,0,72,12,3,space,0.45952869951725006,None,3,12,72,10,67.95554689969867,,,,,,,,,,67.94264530017972,67.95554689969867,68.45519590005279,68.45519590005279,68.45519590005279,68.9263992998749,space,0.45952869951725006,None,zxcv,011,2026-04-21_09h42.29.231,noise_study,,2026.1.3,60.07409543598725,2026-04-21 09h42.29.514954 +0500,
Noise,cafe_noise.wav,1,73,13,3,space,0.73275660071522,None,3,13,73,13,68.93793489970267,,,,,,,,,,68.92678529955447,68.93793489970267,69.43759489990771,69.43759489990771,69.43759489990771,70.1740642003715,space,0.73275660071522,None,zxcv,011,2026-04-21_09h42.29.231,noise_study,,2026.1.3,60.07409543598725,2026-04-21 09h42.29.514954 +0500,
Silence,cafe_noise.wav,0,74,14,3,space,0.23428700026124716,None,3,14,74,2,70.18665950000286,,,,,,,,,,70.17424189951271,70.18665950000286,70.68624790012836,70.68624790012836,70.68624790012836,70.92323619965464,space,0.23428700026124716,None,zxcv,011,2026-04-21_09h42.29.231,noise_study,,2026.1.3,60.07409543598725,2026-04-21 09h42.29.514954 +0500,
Noise,cafe_noise.wav,1,75,15,3,space,0.39730240032076836,None,3,15,75,9,70.9359985999763,,,,,,,,,,70.92341599985957,70.9359985999763,71.43558510020375,71.43558510020375,71.43558510020375,71.83947080001235,space,0.39730240032076836,None,zxcv,011,2026-04-21_09h42.29.231,noise_study,,2026.1.3,60.07409543598725,2026-04-21 09h42.29.514954 +0500,
Noise,cafe_noise.wav,1,76,16,3,space,0.32471409998834133,None,3,16,76,7,71.85168739967048,,,,,,,,,,71.83966429997236,71.85168739967048,72.35141060035676,72.35141060035676,72.35141060035676,72.6878067003563,space,0.32471409998834133,None,zxcv,011,2026-04-21_09h42.29.231,noise_study,,2026.1.3,60.07409543598725,2026-04-21 09h42.29.514954 +0500,
Silence,cafe_noise.wav,0,77,17,3,space,0.26480509992688894,None,3,17,77,14,72.70093839988112,,,,,,,,,,72.68799410015345,72.70093839988112,73.2004961995408,73.2004961995408,73.2004961995408,73.47062129992992,space,0.26480509992688894,None,zxcv,011,2026-04-21_09h42.29.231,noise_study,,2026.1.3,60.07409543598725,2026-04-21 09h42.29.514954 +0500,
Noise,cafe_noise.wav,1,78,18,3,space,0.30383980087935925,None,3,18,78,5,73.48362949956208,,,,,,,,,,73.47080099955201,73.48362949956208,73.98328769952059,73.98328769952059,73.98328769952059,74.30270420014858,space,0.30383980087935925,None,zxcv,011,2026-04-21_09h42.29.231,noise_study,,2026.1.3,60.07409543598725,2026-04-21 09h42.29.514954 +0500,
Silence,cafe_noise.wav,0,79,19,3,space,0.28526460006833076,None,3,19,79,4,74.31600989960134,,,,,,,,,,74.30288389977068,74.31600989960134,74.8155776001513,74.8155776001513,74.8155776001513,75.10229429975152,space,0.28526460006833076,None,zxcv,011,2026-04-21_09h42.29.231,noise_study,,2026.1.3,60.07409543598725,2026-04-21 09h42.29.514954 +0500,
Silence,cafe_noise.wav,0,80,0,4,space,0.2978483997285366,None,4,0,80,6,75.11510500032455,,,,,,,,,,75.10248070023954,75.11510500032455,75.61489950027317,75.61489950027317,75.61489950027317,75.91860229987651,space,0.2978483997285366,None,zxcv,011,2026-04-21_09h42.29.231,noise_study,,2026.1.3,60.07409543598725,2026-04-21 09h42.29.514954 +0500,
Noise,cafe_noise.wav,1,81,1,4,space,0.31476440001279116,None,4,1,81,11,75.93105790019035,,,,,,,,,,75.91878039948642,75.93105790019035,76.43062470015138,76.43062470015138,76.43062470015138,76.75048159994185,space,0.31476440001279116,None,zxcv,011,2026-04-21_09h42.29.231,noise_study,,2026.1.3,60.07409543598725,2026-04-21 09h42.29.514954 +0500,
Silence,cafe_noise.wav,0,82,2,4,space,0.24261980038136244,None,4,2,82,4,76.76375310029835,,,,,,,,,,76.7506660996005,76.76375310029835,77.26332370005548,77.26332370005548,77.26332370005548,77.51672740001231,space,0.24261980038136244,None,zxcv,011,2026-04-21_09h42.29.231,noise_study,,2026.1.3,60.07409543598725,2026-04-21 09h42.29.514954 +0500,
Noise,cafe_noise.wav,1,83,3,4,space,0.3086099000647664,None,4,3,83,13,77.52949940040708,,,,,,,,,,77.51690389961004,77.52949940040708,78.02914599981159,78.02914599981159,78.02914599981159,78.34900350030512,space,0.3086099000647664,None,zxcv,011,2026-04-21_09h42.29.231,noise_study,,2026.1.3,60.07409543598725,2026-04-21 09h42.29.514954 +0500,
Silence,cafe_noise.wav,0,84,4,4,space,0.256716700270772,None,4,4,84,16,78.36202390026301,,,,,,,,,,78.34917890001088,78.36202390026301,78.86168050020933,78.86168050020933,78.86168050020933,79.1318781003356,space,0.256716700270772,None,zxcv,011,2026-04-21_09h42.29.231,noise_study,,2026.1.3,60.07409543598725,2026-04-21 09h42.29.514954 +0500,
Silence,cafe_noise.wav,0,85,5,4,space,0.295746399089694,None,4,5,85,12,79.1446762997657,,,,,,,,,,79.13204989954829,79.1446762997657,79.64413310028613,79.64413310028613,79.64413310028613,79.94736810028553,space,0.295746399089694,None,zxcv,011,2026-04-21_09h42.29.231,noise_study,,2026.1.3,60.07409543598725,2026-04-21 09h42.29.514954 +0500,
Noise,cafe_noise.wav,1,86,6,4,space,0.34090680070221424,None,4,6,86,7,79.9604335995391,,,,,,,,,,79.94754590000957,79.9604335995391,80.46003689989448,80.46003689989448,80.46003689989448,80.81320550013334,space,0.34090680070221424,None,zxcv,011,2026-04-21_09h42.29.231,noise_study,,2026.1.3,60.07409543598725,2026-04-21 09h42.29.514954 +0500,
Noise,cafe_noise.wav,1,87,7,4,space,0.31995460018515587,None,4,7,87,17,80.82650060020387,,,,,,,,,,80.8133912999183,80.82650060020387,81.32586690038443,81.32586690038443,81.32586690038443,81.64644640032202,space,0.31995460018515587,None,zxcv,011,2026-04-21_09h42.29.231,noise_study,,2026.1.3,60.07409543598725,2026-04-21 09h42.29.514954 +0500,
Silence,cafe_noise.wav,0,88,8,4,space,0.27723299991339445,None,4,8,88,8,81.65881999954581,,,,,,,,,,81.6466247998178,81.65881999954581,82.15847939997911,82.15847939997911,82.15847939997911,82.44502259977162,space,0.27723299991339445,None,zxcv,011,2026-04-21_09h42.29.231,noise_study,,2026.1.3,60.07409543598725,2026-04-21 09h42.29.514954 +0500,
Silence,cafe_noise.wav,0,89,9,4,space,0.28245729953050613,None,4,9,89,2,82.45789930038154,,,,,,,,,,82.4451938001439,82.45789930038154,82.95777409989387,82.95777409989387,82.95777409989387,83.24612529948354,space,0.28245729953050613,None,zxcv,011,2026-04-21_09h42.29.231,noise_study,,2026.1.3,60.07409543598725,2026-04-21 09h42.29.514954 +0500,
Silence,cafe_noise.wav,0,90,10,4,space,0.2847349001094699,None,4,10,90,18,83.25753109995276,,,,,,,,,,83.24632180016488,83.25753109995276,83.75688210036606,83.75688210036606,83.75688210036606,84.04361279960722,space,0.2847349001094699,None,zxcv,011,2026-04-21_09h42.29.231,noise_study,,2026.1.3,60.07409543598725,2026-04-21 09h42.29.514954 +0500,
Noise,cafe_noise.wav,1,91,11,4,space,0.30632090009748936,None,4,11,91,5,84.05647659953684,,,,,,,,,,84.04379120003432,84.05647659953684,84.55606199987233,84.55606199987233,84.55606199987233,84.87825580034405,space,0.30632090009748936,None,zxcv,011,2026-04-21_09h42.29.231,noise_study,,2026.1.3,60.07409543598725,2026-04-21 09h42.29.514954 +0500,
Silence,cafe_noise.wav,0,92,12,4,space,0.278426899574697,None,4,12,92,14,84.88883509952575,,,,,,,,,,84.87857319973409,84.88883509952575,85.38862640038133,85.38862640038133,85.38862640038133,85.6751001002267,space,0.278426899574697,None,zxcv,011,2026-04-21_09h42.29.231,noise_study,,2026.1.3,60.07409543598725,2026-04-21 09h42.29.514954 +0500,
Silence,cafe_noise.wav,0,93,13,4,space,0.29898819979280233,None,4,13,93,10,85.68823719955981,,,,,,,,,,85.67527319956571,85.68823719955981,86.18796180002391,86.18796180002391,86.18796180002391,86.49098309967667,space,0.29898819979280233,None,zxcv,011,2026-04-21_09h42.29.231,noise_study,,2026.1.3,60.07409543598725,2026-04-21 09h42.29.514954 +0500,
Silence,cafe_noise.wav,0,94,14,4,space,0.27700920030474663,None,4,14,94,0,86.50392560008913,,,,,,,,,,86.49115309957415,86.50392560008913,87.00386540032923,87.00386540032923,87.00386540032923,87.29045940004289,space,0.27700920030474663,None,zxcv,011,2026-04-21_09h42.29.231,noise_study,,2026.1.3,60.07409543598725,2026-04-21 09h42.29.514954 +0500,
Noise,cafe_noise.wav,1,95,15,4,space,0.2588740000501275,None,4,15,95,1,87.30339740030468,,,,,,,,,,87.29063790012151,87.30339740030468,87.80324329994619,87.80324329994619,87.80324329994619,88.07286870013922,space,0.2588740000501275,None,zxcv,011,2026-04-21_09h42.29.231,noise_study,,2026.1.3,60.07409543598725,2026-04-21 09h42.29.514954 +0500,
Noise,cafe_noise.wav,1,96,16,4,space,0.284345299936831,None,4,16,96,15,88.08580689970404,,,,,,,,,,88.07305189967155,88.08580689970404,88.58620260003954,88.58620260003954,88.58620260003954,88.87319879978895,space,0.284345299936831,None,zxcv,011,2026-04-21_09h42.29.231,noise_study,,2026.1.3,60.07409543598725,2026-04-21 09h42.29.514954 +0500,
Noise,cafe_noise.wav,1,97,17,4,space,0.2805557996034622,None,4,17,97,19,88.88545649964362,,,,,,,,,,88.8733777999878,88.88545649964362,89.38469399977475,89.38469399977475,89.38469399977475,89.67166750039905,space,0.2805557996034622,None,zxcv,011,2026-04-21_09h42.29.231,noise_study,,2026.1.3,60.07409543598725,2026-04-21 09h42.29.514954 +0500,
Noise,cafe_noise.wav,1,98,18,4,space,0.26044229976832867,None,4,18,98,3,89.6841227998957,,,,,,,,,,89.6718474002555,89.6841227998957,90.18408210016787,90.18408210016787,90.18408210016787,90.45729480031878,space,0.26044229976832867,None,zxcv,011,2026-04-21_09h42.29.231,noise_study,,2026.1.3,60.07409543598725,2026-04-21 09h42.29.514954 +0500,
Noise,cafe_noise.wav,1,99,19,4,space,0.3314935006201267,None,4,19,99,9,90.4664391996339,,,,,,,,,,90.4575602998957,90.4664391996339,90.96734130010009,90.96734130010009,90.96734130010009,91.30308740027249,space,0.3314935006201267,None,zxcv,011,2026-04-21_09h42.29.231,noise_study,,2026.1.3,60.07409543598725,2026-04-21 09h42.29.514954 +0500,
